aX,aY,aZ,gX,gY,gZ
-0.803,0.986,0.763,-8.606,17.761,82.703
-0.707,1.099,0.761,13.611,-1.953,86.365
-0.663,1.256,0.727,36.194,-32.471,88.501
-0.597,1.423,0.689,48.950,-66.223,88.379
-0.559,1.597,0.750,47.668,-88.318,86.060
-0.506,1.700,0.822,33.081,-96.008,87.097
-0.424,1.790,0.876,9.644,-85.571,94.666
-0.280,1.815,0.885,-15.686,-60.608,103.577
-0.146,1.812,0.890,-43.762,-33.691,106.384
-0.047,1.770,0.913,-69.946,-11.963,98.328
0.000,1.694,0.959,-92.590,4.700,81.909
0.002,1.568,0.994,-109.680,19.470,62.927
-0.047,1.434,1.022,-117.432,29.968,41.992
-0.118,1.333,1.049,-114.075,37.659,20.264
-0.228,1.236,1.071,-100.586,44.128,1.587
-0.281,1.126,1.007,-82.825,46.082,-13.184
-0.330,0.998,0.935,-63.293,42.236,-25.452
-0.385,0.867,0.898,-42.053,30.090,-37.415
-0.388,0.744,0.851,-18.738,18.921,-49.744
-0.409,0.680,0.810,5.371,1.221,-62.744
-0.430,0.666,0.762,30.518,-19.470,-75.134
-0.435,0.670,0.705,51.636,-34.851,-83.191
-0.437,0.685,0.675,64.697,-41.565,-86.182
-0.425,0.695,0.636,67.688,-43.030,-85.938
-0.373,0.714,0.581,61.707,-41.199,-84.595
-0.316,0.751,0.535,49.377,-38.635,-85.632
-0.292,0.787,0.515,32.227,-36.987,-89.417
-0.304,0.788,0.523,10.559,-35.828,-93.506
-0.246,0.777,0.558,-12.451,-27.466,-96.619
-0.284,0.685,0.639,-33.081,-18.127,-96.497
-0.247,0.551,0.752,-49.500,-13.794,-100.159
-0.193,0.448,0.828,-53.833,-18.738,-104.736
-0.183,0.347,0.896,-44.373,-34.119,-105.469
-0.159,0.243,0.951,-25.635,-53.223,-105.591
-0.171,0.178,0.983,-2.197,-71.838,-104.309
-0.190,0.139,0.994,24.414,-84.229,-102.051
-0.177,0.081,0.994,50.476,-88.501,-99.365
-0.171,0.035,0.991,69.031,-83.313,-95.520
-0.113,-0.026,0.984,79.163,-72.815,-92.285
-0.041,-0.131,0.997,82.581,-58.472,-89.294
-0.013,-0.199,1.005,78.369,-47.180,-88.013
0.010,-0.236,0.990,70.557,-36.743,-89.417
0.002,-0.260,0.997,63.843,-26.306,-89.722
-0.027,-0.269,0.998,58.167,-16.602,-88.928
0.004,-0.270,1.007,54.199,-3.418,-88.440
0.022,-0.350,1.068,51.697,5.066,-84.229
-0.002,-0.397,1.051,43.945,-5.066,-79.712
-0.010,-0.404,1.040,36.255,-17.212,-78.186
-0.028,-0.403,1.021,33.325,-21.301,-73.364
-0.046,-0.419,1.010,30.029,-17.273,-65.125
-0.095,-0.393,1.003,25.208,-12.939,-55.908
-0.134,-0.312,1.006,20.996,-7.996,-45.898
-0.132,-0.252,1.004,18.799,-4.639,-33.752
-0.094,-0.214,1.001,17.761,-4.944,-22.034
-0.055,-0.157,1.006,18.250,-7.324,-13.855
-0.054,-0.082,1.019,19.531,-6.226,-9.583
-0.036,-0.019,1.012,20.203,-6.287,-7.324
-0.045,0.044,1.007,19.897,-6.409,-6.287
-0.067,0.097,0.999,18.372,-6.409,-6.042
-0.082,0.136,0.984,14.587,-8.911,-5.554
-0.070,0.141,0.974,9.277,-7.019,-4.395
-0.069,0.130,0.976,1.648,-7.446,-2.808
-0.054,0.122,0.987,-6.592,-6.714,-2.441
-0.066,0.090,0.984,-14.282,-5.737,-2.869
-0.067,0.067,1.010,-20.264,-0.366,-4.150
-0.091,0.052,1.030,-23.743,3.479,-3.174
-0.104,0.059,1.055,-22.217,7.080,0.732
-0.096,0.086,1.062,-15.503,7.507,5.676
-0.077,0.138,1.057,-5.005,6.775,8.606
-0.058,0.183,1.038,6.104,5.493,9.521
-0.061,0.227,1.018,14.648,1.648,9.644
-0.058,0.268,0.998,20.569,0.916,9.827
-0.045,0.296,0.970,23.254,1.404,10.498
-0.035,0.312,0.941,21.606,2.014,10.559
-0.027,0.302,0.912,16.907,4.761,10.193
-0.046,0.284,0.898,10.193,5.249,9.521
-0.057,0.270,0.888,4.578,5.554,8.423
-0.067,0.252,0.902,1.282,2.869,8.057
-0.058,0.242,0.917,0.061,1.953,8.301
-0.051,0.232,0.931,0.610,0.000,9.155
-0.036,0.226,0.955,3.662,0.977,9.766
-0.038,0.223,0.977,7.446,2.380,10.620
-0.036,0.214,1.001,14.648,8.362,11.780
-0.030,0.214,0.990,24.170,5.859,12.512
-0.029,0.221,0.972,33.813,7.202,12.085
-0.047,0.225,0.948,39.307,5.493,11.414
-0.058,0.232,0.933,40.894,6.042,10.864
-0.063,0.251,0.908,38.391,10.193,10.193
-0.071,0.251,0.917,31.799,5.981,10.315
-0.059,0.269,0.901,21.912,-1.404,10.620
-0.034,0.255,0.930,12.268,-3.418,11.047
-0.018,0.252,0.944,4.761,-2.808,10.986
-0.015,0.241,0.953,-0.488,-3.113,11.292
-0.012,0.219,0.963,-4.150,-1.099,12.024
-0.019,0.205,0.983,-4.944,4.578,12.512
-0.026,0.185,0.983,-4.395,8.484,13.428
-0.030,0.168,0.995,-2.441,7.935,13.611
-0.044,0.184,0.983,1.648,5.737,12.451
-0.054,0.203,0.960,6.104,10.620,10.742
-0.058,0.220,0.940,7.751,8.362,9.705
-0.071,0.254,0.923,8.667,2.136,8.057
-0.065,0.286,0.908,7.141,5.554,7.019
-0.055,0.297,0.898,1.648,7.324,7.507
-0.047,0.312,0.903,-5.249,5.920,8.667
-0.023,0.302,0.917,-9.888,3.296,9.399
-0.006,0.272,0.939,-12.512,7.141,9.216
-0.005,0.234,0.953,-12.817,4.333,8.179
-0.016,0.205,0.960,-11.169,8.911,6.775
-0.034,0.186,0.965,-7.812,9.277,6.042
-0.060,0.181,0.962,-4.822,5.005,6.287
-0.076,0.178,0.952,-1.282,-2.014,7.874
-0.082,0.202,0.944,2.930,1.282,8.667
-0.078,0.227,0.932,5.493,1.404,8.728
-0.067,0.245,0.920,7.446,-5.859,8.545
-0.051,0.263,0.918,7.324,-3.357,7.751
-0.056,0.277,0.911,0.671,-1.709,6.165
-0.070,0.300,0.920,-4.883,0.671,5.615
-0.068,0.317,0.927,-10.864,4.883,5.798
-0.065,0.312,0.934,-14.465,-0.061,6.836
-1.036,1.382,0.472,69.519,-15.869,15.259
-0.980,1.550,0.497,50.232,-45.349,10.193
-0.883,1.664,0.548,12.878,-65.369,9.277
-0.796,1.738,0.721,-35.889,-70.435,16.968
-0.682,1.750,0.920,-87.585,-58.899,38.208
-0.452,1.730,1.015,-131.714,-31.128,72.205
-0.179,1.718,1.120,-155.823,12.512,107.666
0.059,1.667,1.202,-156.311,46.326,128.357
0.209,1.629,1.182,-138.489,61.523,129.517
0.286,1.570,1.160,-104.248,63.477,110.596
0.298,1.502,1.154,-61.768,46.143,74.097
0.206,1.420,1.148,-21.118,12.573,32.837
0.070,1.341,1.116,11.597,-25.085,-2.808
-0.070,1.262,1.092,36.133,-51.392,-26.733
-0.197,1.198,1.092,50.903,-61.401,-40.833
-0.320,1.149,1.079,59.387,-58.472,-44.495
-0.378,1.090,1.022,61.401,-44.373,-40.344
-0.394,1.046,0.950,59.021,-23.010,-36.621
-0.394,1.002,0.869,52.429,-3.845,-37.842
-0.398,0.957,0.813,43.518,10.315,-44.312
-0.446,0.899,0.773,33.569,14.160,-53.101
-0.474,0.834,0.741,22.949,13.733,-59.509
-0.495,0.760,0.726,12.878,12.756,-64.697
-0.491,0.721,0.722,3.174,7.751,-70.496
-0.495,0.679,0.730,-5.188,2.197,-75.989
-0.470,0.655,0.745,-10.193,-0.854,-78.735
-0.428,0.661,0.767,-11.108,0.000,-80.322
-0.382,0.651,0.786,-11.414,0.671,-82.764
-0.328,0.608,0.792,-13.306,-1.160,-84.778
-0.265,0.593,0.809,-15.503,-5.249,-88.135
-0.206,0.573,0.820,-17.151,-11.841,-94.543
-0.173,0.567,0.823,-17.639,-22.827,-103.882
-0.191,0.555,0.832,-16.785,-31.067,-115.173
-0.257,0.513,0.840,-16.785,-36.743,-123.474
-0.300,0.441,0.848,-17.151,-36.987,-123.657
-0.316,0.335,0.892,-15.686,-31.860,-115.784
-0.307,0.278,0.940,-13.245,-29.663,-104.736
-0.261,0.235,0.945,-4.517,-34.058,-93.933
-0.182,0.172,0.995,13.794,-39.551,-84.595
-0.132,0.141,0.991,39.490,-54.077,-83.923
-0.064,0.126,0.986,69.885,-72.937,-90.332
-0.043,0.115,0.986,98.328,-87.463,-97.839
0.004,0.094,0.953,117.615,-89.722,-102.966
0.029,0.050,0.922,123.352,-78.552,-106.079
0.035,-0.021,0.898,113.953,-61.768,-109.436
0.026,-0.116,0.868,94.788,-45.166,-111.328
-0.009,-0.233,0.854,73.547,-28.748,-112.915
-0.040,-0.333,0.853,54.626,-15.076,-116.089
-0.075,-0.467,0.852,39.978,-7.935,-117.310
-0.100,-0.585,0.846,28.320,-6.714,-115.906
-0.121,-0.694,0.847,17.517,-8.057,-112.854
-0.143,-0.773,0.851,7.263,-10.437,-107.544
-0.153,-0.821,0.860,-3.479,-11.658,-98.511
-0.151,-0.849,0.883,-14.038,-10.925,-86.304
-0.140,-0.843,0.910,-23.254,-9.705,-72.937
-0.128,-0.805,0.936,-30.518,-7.446,-60.059
-0.101,-0.715,0.970,-33.508,-5.554,-48.706
-0.109,-0.636,0.996,-29.602,-7.141,-36.987
-0.116,-0.540,1.021,-23.926,-8.545,-28.503
-0.142,-0.433,1.055,-19.470,-8.728,-20.142
-0.142,-0.323,1.062,-16.296,-6.897,-8.728
-0.109,-0.217,1.047,-14.282,-5.066,2.563
-0.087,-0.097,1.032,-11.841,-4.822,11.169
-0.075,0.006,1.014,-8.606,-4.700,16.357
-0.051,0.079,0.995,-6.348,-4.395,20.874
-0.034,0.137,0.981,-5.249,-4.639,23.682
-0.019,0.192,0.982,-3.845,-4.150,24.841
-0.022,0.248,0.989,-0.793,-3.601,24.475
-0.033,0.278,1.000,1.343,-4.822,22.034
-0.029,0.295,1.009,0.183,-6.042,19.836
-0.027,0.301,1.021,-3.662,-4.761,17.822
-0.030,0.289,1.028,-8.057,-1.770,16.968
-0.015,0.283,1.045,-12.573,3.845,15.747
-0.013,0.277,1.048,-15.930,8.972,14.160
-0.009,0.258,1.052,-15.869,12.939,13.794
0.003,0.239,1.040,-12.939,14.709,13.916
-0.000,0.238,1.027,-8.789,15.076,13.306
-0.003,0.233,1.002,-3.479,15.747,12.756
-0.005,0.239,0.977,1.709,15.198,12.024
-0.010,0.251,0.951,6.287,15.442,10.437
-0.017,0.264,0.928,10.254,15.442,9.216
-0.028,0.264,0.914,13.123,13.855,7.935
-0.039,0.261,0.901,13.062,10.498,6.958
-0.058,0.265,0.896,9.644,9.216,6.653
-0.048,0.255,0.896,6.165,9.277,7.202
-0.034,0.247,0.895,2.930,6.653,7.263
-0.029,0.247,0.900,0.488,2.625,7.019
-0.014,0.240,0.908,-0.610,1.648,7.202
-0.019,0.250,0.913,-1.465,1.404,6.958
-0.006,0.242,0.912,-0.854,1.038,7.202
0.002,0.236,0.911,0.183,1.038,7.690
-0.005,0.246,0.908,0.610,1.770,6.897
-0.018,0.250,0.905,0.671,2.563,5.676
-0.032,0.261,0.899,0.549,0.244,4.639
-0.047,0.254,0.906,-0.549,-0.549,4.150
-0.063,0.254,0.926,-3.174,-2.808,4.883
-0.074,0.261,0.943,-6.165,-4.761,6.226
-0.075,0.258,0.974,-8.423,-1.953,8.362
-0.067,0.262,0.999,-7.263,-2.075,10.010
-0.051,0.268,1.011,-4.883,-3.967,10.986
-0.033,0.269,1.023,-0.732,-3.235,11.108
-0.021,0.278,1.017,3.723,-1.160,10.742
-0.002,0.280,1.005,7.141,1.404,9.644
0.007,0.274,0.987,9.766,2.747,7.507
-0.003,0.270,0.965,11.292,4.333,4.333
-0.023,0.271,0.942,11.230,7.812,1.770
-0.034,0.264,0.920,9.155,8.118,0.793
-0.065,0.254,0.911,7.568,7.935,0.427
-0.075,0.249,0.904,4.700,7.629,0.488
-0.068,0.250,0.904,1.160,9.155,1.465
-0.054,0.250,0.903,-1.343,8.606,2.747
-0.053,0.252,0.914,-3.113,8.057,3.601
-0.047,0.251,0.927,-3.601,5.127,3.479
-0.034,0.239,0.940,-3.723,5.432,3.174
-0.024,0.237,0.960,-4.700,8.911,2.686
-0.030,0.256,0.978,-5.005,10.742,2.441
-0.025,0.265,0.984,-5.066,13.855,3.052
-0.021,0.255,0.982,-4.211,15.381,3.784
-0.011,0.242,0.980,-4.395,14.099,3.967
-1.352,1.269,0.542,121.643,116.943,15.869
-1.420,1.592,0.413,151.184,114.929,47.546
-1.346,1.862,0.256,163.391,104.065,78.796
-1.138,2.029,0.214,154.846,78.430,108.093
-0.794,2.097,0.253,124.817,44.922,133.057
-0.350,2.052,0.332,81.604,13.000,148.743
0.031,1.949,0.419,34.363,-12.207,148.499
0.294,1.838,0.476,-8.728,-27.588,129.150
0.405,1.717,0.546,-38.269,-30.090,96.436
0.334,1.626,0.653,-52.979,-13.855,55.786
0.160,1.537,0.786,-55.359,6.592,16.052
-0.021,1.418,0.915,-51.941,21.545,-11.719
-0.145,1.266,1.017,-46.143,29.785,-26.123
-0.210,1.121,1.101,-36.682,25.818,-30.396
-0.225,0.990,1.150,-20.935,11.169,-29.114
-0.210,0.881,1.140,-0.916,-13.123,-26.794
-0.192,0.810,1.078,22.949,-27.954,-28.748
-0.196,0.767,1.010,51.392,-32.166,-35.889
-0.222,0.752,0.949,78.186,-33.813,-46.509
-0.264,0.759,0.912,96.558,-38.452,-56.152
-0.329,0.776,0.883,103.699,-36.926,-60.303
-0.362,0.785,0.843,101.746,-30.823,-56.702
-0.352,0.808,0.825,90.027,-23.254,-50.049
-0.344,0.835,0.826,76.294,-15.503,-46.326
-0.368,0.866,0.826,59.326,-10.376,-45.349
-0.411,0.865,0.836,44.495,-10.376,-43.579
-0.408,0.832,0.828,33.203,-8.301,-39.063
-0.344,0.807,0.796,29.114,-10.925,-34.241
-0.258,0.832,0.779,31.128,-12.451,-36.499
-0.175,0.906,0.789,37.354,-20.935,-50.537
-0.128,0.962,0.792,47.485,-27.771,-72.632
-0.116,1.004,0.750,57.251,-32.593,-96.375
-0.141,1.029,0.714,61.462,-39.246,-118.469
-0.217,1.046,0.667,58.472,-36.865,-136.719
-0.322,1.051,0.632,48.584,-31.067,-147.339
-0.383,1.001,0.575,35.583,-26.550,-148.804
-0.404,0.920,0.521,20.447,-14.465,-143.738
-0.398,0.845,0.517,4.700,-12.634,-139.221
-0.382,0.752,0.555,-5.066,-13.367,-137.268
-0.357,0.637,0.573,-13.000,-20.142,-134.155
-0.334,0.513,0.606,-19.592,-35.400,-128.357
-0.317,0.393,0.657,-22.461,-50.415,-121.765
-0.260,0.257,0.692,-22.583,-66.406,-115.662
-0.203,0.127,0.757,-23.376,-82.092,-110.657
-0.194,0.003,0.854,-26.794,-94.604,-108.704
-0.166,-0.079,0.950,-28.503,-100.281,-107.056
-0.127,-0.165,1.031,-23.254,-97.290,-104.492
-0.119,-0.213,1.095,-10.986,-93.689,-102.783
-0.089,-0.268,1.099,3.601,-94.299,-103.394
-0.023,-0.308,1.093,14.832,-82.397,-109.619
-0.009,-0.312,1.098,21.912,-68.787,-117.554
-0.033,-0.341,1.089,21.606,-64.636,-122.009
-0.044,-0.407,1.096,13.733,-63.232,-124.756
-0.070,-0.473,1.113,1.038,-55.908,-123.291
-0.064,-0.542,1.124,-13.855,-43.701,-119.446
-0.060,-0.619,1.185,-28.992,-32.349,-114.014
-0.095,-0.674,1.255,-46.387,-26.611,-106.079
-0.113,-0.754,1.341,-60.242,-21.851,-99.548
-0.161,-0.794,1.429,-71.045,-14.160,-90.759
-0.150,-0.810,1.485,-71.472,-4.272,-76.782
-0.132,-0.804,1.523,-59.326,3.540,-59.082
-0.105,-0.751,1.522,-33.569,14.099,-43.640
-0.050,-0.629,1.468,3.113,24.109,-35.278
-0.054,-0.486,1.333,45.654,25.146,-30.457
-0.094,-0.314,1.190,81.787,23.682,-28.381
-0.141,-0.165,1.045,103.760,17.090,-24.902
-0.188,-0.033,0.898,111.816,19.592,-16.357
-0.194,0.120,0.767,108.887,19.409,-5.493
-0.165,0.246,0.667,94.299,17.822,5.249
-0.134,0.332,0.622,71.960,19.958,15.259
-0.112,0.374,0.627,45.166,13.428,23.804
-0.079,0.388,0.662,19.043,8.972,32.349
-0.031,0.413,0.693,-2.258,3.601,39.368
0.016,0.430,0.736,-13.367,4.517,42.908
0.057,0.435,0.779,-17.517,-4.700,43.030
0.099,0.422,0.833,-17.883,-4.761,40.283
0.108,0.414,0.872,-15.015,-10.315,35.034
0.098,0.409,0.894,-13.123,-13.733,28.442
0.075,0.387,0.910,-11.230,-8.179,21.362
0.041,0.358,0.908,-12.085,-12.268,14.465
0.025,0.338,0.913,-14.160,-7.507,8.118
0.004,0.335,0.924,-14.771,-6.653,3.174
-0.035,0.344,0.958,-17.029,-10.254,0.549
-0.056,0.336,0.982,-17.700,-6.592,1.587
-0.060,0.313,1.007,-17.883,-4.761,7.751
-0.032,0.299,1.038,-15.015,-4.944,14.099
-0.009,0.285,1.058,-9.949,-8.606,17.578
0.013,0.275,1.060,-1.343,-2.808,18.188
0.019,0.276,1.049,8.667,-1.892,15.076
0.017,0.278,1.024,12.817,-5.615,10.132
-0.004,0.281,1.005,12.756,2.625,5.310
-0.029,0.278,0.976,9.949,9.583,1.343
-0.055,0.282,0.951,6.836,13.245,-1.343
-0.081,0.294,0.934,4.211,13.306,-3.296
-0.093,0.294,0.925,2.808,10.376,-2.930
-0.075,0.280,0.913,1.404,3.906,-0.244
-0.064,0.283,0.915,-0.610,1.709,2.197
-0.043,0.289,0.915,-1.343,2.502,3.601
-0.040,0.288,0.918,1.038,6.042,4.944
-0.044,0.305,0.907,5.005,10.132,6.348
-0.025,0.324,0.883,9.033,14.160,8.118
-0.011,0.340,0.852,11.780,14.893,8.057
-0.024,0.347,0.837,10.559,11.536,6.348
-0.055,0.354,0.835,5.127,5.188,5.859
-0.056,0.353,0.846,-1.953,1.038,7.446
-0.043,0.346,0.873,-5.676,3.357,9.521
-0.022,0.340,0.899,-6.897,5.005,10.437
-0.007,0.354,0.921,-5.920,0.732,9.460
0.001,0.350,0.941,-2.808,-2.625,7.202
-0.002,0.339,0.969,-0.916,-6.226,5.493
0.007,0.326,0.970,-0.854,-4.517,4.822
0.011,0.310,0.969,0.610,-3.418,4.578
0.006,0.309,0.968,3.723,-2.136,3.845
-0.008,0.302,0.949,5.737,2.380,2.441
-0.012,0.286,0.938,5.127,9.155,2.197
-0.037,0.277,0.928,2.136,8.179,2.869
-0.031,0.261,0.927,0.183,6.409,3.845
-0.036,0.245,0.932,-0.122,1.404,5.432
-0.029,0.240,0.940,2.441,-2.808,6.958
-0.124,-0.990,1.350,-42.725,14.587,-90.576
-0.172,-0.905,1.347,-12.573,15.442,-76.904
-0.293,-0.757,1.299,21.606,10.132,-61.829
-0.343,-0.603,1.211,52.185,5.920,-36.804
-0.288,-0.442,1.082,74.890,-2.686,-5.859
-0.211,-0.233,0.954,87.036,-9.521,18.066
-0.164,-0.001,0.862,90.088,-15.747,31.799
-0.139,0.204,0.804,84.961,-19.775,40.344
-0.113,0.358,0.787,71.655,-20.508,47.241
-0.062,0.477,0.784,53.162,-19.775,52.979
-0.030,0.569,0.802,34.302,-17.151,55.359
-0.024,0.638,0.843,18.921,-15.503,53.528
-0.010,0.659,0.874,8.057,-13.489,51.270
0.021,0.659,0.902,0.610,-11.047,48.401
0.052,0.613,0.931,-5.066,-10.437,42.236
0.042,0.553,0.968,-10.071,-11.047,33.630
0.023,0.480,0.999,-12.817,-11.108,26.306
0.005,0.392,1.018,-14.526,-9.827,21.545
-0.016,0.324,1.041,-14.771,-7.324,17.334
-0.039,0.271,1.053,-12.817,-6.165,12.878
-0.070,0.233,1.060,-8.423,-8.301,9.705
-0.096,0.191,1.077,-3.052,-7.202,9.277
-0.108,0.161,1.087,0.793,-5.249,10.742
-0.091,0.152,1.075,3.540,0.732,13.794
-0.084,0.170,1.059,9.644,4.944,16.418
-0.094,0.201,1.033,17.944,5.310,16.724
-0.086,0.230,1.001,23.499,6.287,16.357
-0.085,0.254,0.977,24.658,6.348,16.296
-0.099,0.271,0.961,21.362,8.789,15.564
-0.098,0.286,0.947,16.846,14.038,15.991
-0.087,0.289,0.933,12.329,17.090,16.724
-0.091,0.292,0.934,10.010,18.799,16.541
-0.093,0.313,0.932,10.620,18.066,14.709
-0.068,0.310,0.917,15.137,15.747,12.573
-0.064,0.299,0.892,18.921,10.559,10.620
-0.065,0.286,0.864,21.667,7.874,8.606
-0.062,0.279,0.825,22.522,7.385,6.531
-0.072,0.293,0.784,20.691,5.798,3.967
-0.077,0.291,0.759,18.005,-0.061,1.282
-0.103,0.267,0.766,12.634,-4.639,-0.427
-0.124,0.252,0.792,5.249,-2.441,0.244
-0.126,0.230,0.825,-0.549,-3.357,2.625
-0.125,0.201,0.886,-5.005,-12.024,6.897
-0.123,0.181,0.936,-8.728,-14.771,11.963
-0.109,0.177,0.982,-7.812,-11.536,16.296
-0.089,0.174,1.020,-2.686,-13.428,19.653
-0.064,0.177,1.032,1.831,-14.221,21.729
-0.053,0.194,1.029,7.812,-9.216,21.667
-0.045,0.218,1.019,11.536,-11.963,20.081
-0.035,0.221,1.001,13.062,-5.310,17.944
-0.055,0.230,0.987,13.184,1.953,15.503
-0.080,0.252,0.961,12.085,8.179,13.245
-0.095,0.261,0.942,11.169,10.681,12.085
-0.091,0.249,0.937,10.742,10.071,12.268
-0.093,0.223,0.931,7.935,2.563,12.634
-0.102,0.193,0.944,6.104,6.226,12.878
-0.121,0.176,0.965,4.822,2.136,13.733
-0.138,0.172,0.990,2.808,1.953,15.991
-0.116,0.155,0.994,4.456,7.385,19.287
-0.085,0.125,0.993,6.592,1.282,22.339
-0.064,0.095,0.995,6.409,0.183,23.437
-0.063,0.057,1.000,5.615,5.737,23.865
-0.110,0.036,1.016,4.456,9.888,25.085
-0.146,0.033,1.022,3.906,8.667,27.771
-0.146,0.022,1.025,4.883,9.033,32.043
-0.132,0.001,1.031,5.920,6.165,36.499
-0.126,0.000,1.041,3.357,6.348,39.856
-0.127,0.003,1.052,0.610,10.254,42.664
-0.119,-0.005,1.063,-3.235,6.042,45.654
-0.105,-0.028,1.076,-7.080,9.155,49.194
-0.089,-0.063,1.080,-10.071,11.475,52.673
-0.071,-0.092,1.078,-13.672,14.893,55.176
-0.064,-0.122,1.078,-16.479,14.282,57.129
-0.068,-0.155,1.074,-19.104,21.301,58.899
-0.073,-0.177,1.064,-21.362,24.231,61.584
-0.075,-0.193,1.051,-23.621,28.320,64.819
-0.074,-0.200,1.037,-24.902,34.546,67.932
-0.086,-0.208,1.021,-24.841,35.767,70.679
-0.096,-0.221,1.002,-24.719,37.781,74.219
-0.102,-0.227,0.988,-26.672,34.180,78.857
-0.096,-0.219,0.979,-28.137,39.978,84.106
-0.108,-0.213,0.969,-29.663,39.246,90.942
-0.103,-0.187,0.954,-32.288,41.809,97.412
-0.106,-0.154,0.942,-34.363,45.349,102.844
-0.099,-0.109,0.935,-35.461,45.471,106.750
-0.097,-0.076,0.932,-35.706,46.753,109.802
-0.100,-0.056,0.925,-38.513,44.495,112.244
-0.088,-0.024,0.923,-41.687,54.749,113.953
-0.054,0.007,0.923,-44.373,57.434,114.807
-0.030,0.028,0.916,-47.119,59.937,114.380
-0.045,0.048,0.916,-46.082,59.631,112.610
-0.066,0.070,0.898,-45.288,58.411,109.375
-0.064,0.088,0.872,-44.495,58.899,106.628
-0.051,0.105,0.841,-42.542,57.739,103.577
-0.015,0.131,0.809,-39.673,55.420,98.206
0.027,0.158,0.790,-35.522,52.673,88.562
0.093,0.188,0.778,-30.029,46.631,72.327
0.142,0.211,0.787,-22.278,40.771,51.453
0.136,0.246,0.789,-11.963,33.020,27.588
0.088,0.325,0.783,0.488,25.818,3.418
0.006,0.402,0.738,12.268,19.043,-17.029
-0.103,0.444,0.682,20.142,11.780,-32.715
-0.228,0.515,0.641,22.095,15.625,-42.114
-0.308,0.564,0.672,17.273,13.855,-44.617
-0.429,0.613,0.660,4.944,22.522,-42.358
-0.378,0.612,0.788,-8.667,43.640,-29.480
-0.390,0.573,0.870,-22.583,58.350,-5.981
-0.377,0.594,0.832,-29.175,63.965,7.935
-0.223,0.640,0.873,-22.522,74.097,15.869
-0.206,0.680,0.846,-6.531,69.641,22.156
-0.275,0.746,0.745,10.925,56.824,23.804
-0.290,0.869,0.631,23.987,50.232,27.710
-0.255,1.008,0.526,32.043,55.115,36.438
-0.205,1.117,0.407,34.973,66.406,45.105
-0.173,1.248,0.336,32.043,80.017,46.936
-0.130,1.352,0.324,22.644,84.839,41.504
-0.155,1.370,0.350,5.371,72.205,33.691
-0.178,1.311,0.448,-18.066,51.331,27.039
-0.165,1.221,0.576,-38.574,34.729,31.067
-0.265,-1.344,1.652,-104.980,3.845,-189.087
-0.530,-1.450,1.765,-101.318,15.747,-168.030
-0.635,-1.445,1.764,-70.007,37.354,-122.864
-0.625,-1.263,1.691,-13.367,51.941,-68.848
-0.530,-0.924,1.493,53.284,43.640,-23.071
-0.409,-0.550,1.298,114.929,12.573,7.507
-0.278,-0.176,1.107,158.325,-14.282,26.855
-0.188,0.142,0.954,173.157,-39.063,39.734
-0.129,0.404,0.852,157.654,-42.419,47.180
-0.042,0.613,0.787,118.958,-30.029,50.110
0.049,0.755,0.771,74.951,-12.512,51.086
0.125,0.822,0.796,35.583,2.136,48.462
0.172,0.806,0.829,7.324,11.719,42.175
0.191,0.714,0.850,-8.911,17.578,33.630
0.134,0.608,0.880,-14.648,20.081,23.987
0.066,0.498,0.890,-14.587,18.982,16.479
0.018,0.389,0.894,-12.390,15.625,13.428
-0.010,0.307,0.901,-11.108,11.108,13.062
-0.031,0.237,0.924,-11.719,7.385,14.099
-0.034,0.162,0.956,-14.526,5.188,17.029
-0.015,0.116,0.989,-17.212,3.906,21.301
0.002,0.094,1.009,-15.564,2.563,25.085
0.021,0.093,1.035,-8.240,-0.427,26.733
0.024,0.113,1.033,1.526,-3.418,26.001
0.038,0.146,1.004,12.329,-4.395,25.146
0.025,0.195,0.972,21.545,-5.493,23.376
0.021,0.246,0.955,25.391,-4.944,20.630
0.009,0.287,0.930,23.926,-3.479,18.982
0.009,0.315,0.910,20.508,-2.197,18.188
0.009,0.326,0.912,16.174,-1.892,16.479
0.005,0.326,0.922,10.864,-3.540,14.221
0.003,0.311,0.934,7.751,-3.357,12.939
0.006,0.287,0.943,7.935,-2.747,12.268
-0.007,0.267,0.951,9.399,-1.282,11.841
-0.018,0.246,0.954,10.620,0.671,12.146
-0.009,0.227,0.958,10.498,2.930,12.878
-0.011,0.217,0.957,7.446,0.671,12.512
-0.015,0.215,0.959,5.005,4.639,11.108
-0.009,0.213,0.953,3.357,7.874,10.071
-0.015,0.195,0.954,5.371,8.972,9.155
-0.021,0.180,0.943,9.216,10.498,8.240
-0.025,0.174,0.924,12.817,10.376,7.874
-0.018,0.177,0.894,17.700,10.254,7.385
-0.029,0.187,0.878,19.775,5.005,6.958
-0.046,0.200,0.876,17.395,-0.671,6.836
-0.065,0.223,0.880,11.536,-4.028,8.362
-0.054,0.234,0.881,7.080,-1.038,11.353
-0.036,0.237,0.891,4.150,-1.404,13.672
-0.027,0.238,0.912,0.427,-6.348,14.893
0.000,0.228,0.932,-3.540,-8.728,15.869
-0.002,0.228,0.967,-3.845,-2.136,15.686
0.003,0.215,0.990,0.000,-2.625,14.343
0.013,0.173,1.000,4.333,-5.493,13.062
0.003,0.145,1.000,9.033,0.977,11.353
-0.018,0.145,0.982,12.207,1.831,9.827
-0.036,0.127,0.953,12.024,-2.136,9.949
-0.060,0.114,0.932,10.010,-3.174,11.780
-0.083,0.125,0.922,6.409,-0.916,14.221
-0.097,0.138,0.918,4.395,4.089,17.151
-0.087,0.136,0.919,3.662,-2.502,20.630
-0.087,0.142,0.932,1.404,-7.690,23.376
-0.077,0.144,0.943,1.038,-4.517,25.757
-0.049,0.134,0.953,4.517,-2.747,27.649
-0.046,0.131,0.963,7.690,-6.897,28.320
-0.055,0.131,0.971,11.780,-5.310,27.466
-0.068,0.124,0.981,13.062,-10.620,27.283
-0.090,0.145,0.989,11.292,-4.944,27.710
-0.086,0.154,0.995,10.681,2.563,27.832
-0.072,0.136,1.004,9.827,0.732,28.137
-0.051,0.096,1.024,6.409,-3.174,28.625
-0.045,0.045,1.044,2.625,-3.723,28.809
-0.052,-0.017,1.070,-1.831,-3.418,30.334
-0.055,-0.095,1.095,-5.798,0.122,33.752
-0.059,-0.167,1.126,-8.240,8.057,38.574
-0.067,-0.229,1.156,-6.714,14.343,44.067
-0.066,-0.269,1.175,-2.441,20.081,49.438
-0.071,-0.271,1.179,6.409,23.804,54.810
-0.056,-0.262,1.160,16.541,20.996,60.486
-0.034,-0.252,1.130,25.879,24.780,65.186
-0.015,-0.239,1.092,34.058,26.917,68.298
-0.011,-0.229,1.054,35.767,26.306,69.580
-0.012,-0.234,1.022,33.752,31.677,69.763
-0.008,-0.254,0.996,29.907,40.100,70.374
0.000,-0.276,0.972,22.644,37.415,71.045
0.003,-0.299,0.955,13.123,40.833,71.106
-0.003,-0.322,0.943,6.226,47.302,70.313
-0.082,-0.352,0.984,-0.244,47.180,70.129
-0.165,-0.360,0.976,-7.141,46.021,77.942
-0.158,-0.355,0.937,-10.010,50.232,95.154
-0.114,-0.328,0.927,-6.836,58.350,109.741
-0.090,-0.283,0.917,-0.977,62.683,116.455
-0.086,-0.239,0.900,4.578,58.777,119.690
-0.058,-0.193,0.911,7.324,49.377,121.216
-0.002,-0.147,0.911,8.667,48.645,120.117
0.050,-0.107,0.890,11.902,50.232,114.746
0.095,-0.061,0.833,16.785,56.152,103.760
0.129,0.003,0.768,22.156,61.218,86.426
0.154,0.064,0.714,24.963,60.791,61.523
0.127,0.096,0.668,23.621,51.575,31.921
0.068,0.119,0.657,20.569,44.556,3.906
-0.047,0.142,0.732,17.395,32.288,-17.029
-0.261,0.099,0.885,13.000,18.616,-24.170
-0.440,0.060,0.965,8.484,15.259,-8.240
-0.499,0.034,1.003,7.446,34.607,28.259
-0.470,0.079,1.031,11.719,54.077,72.083
-0.349,0.215,1.064,17.822,59.326,106.201
-0.184,0.328,1.027,27.405,61.157,124.390
-0.010,0.398,1.049,40.283,54.626,128.845
0.121,0.465,1.016,53.467,34.790,114.014
0.228,0.524,0.959,65.308,10.071,84.290
0.218,0.581,0.882,69.946,-12.695,44.800
0.129,0.632,0.806,65.430,-24.231,2.441
-0.010,0.693,0.732,49.866,-29.785,-31.006
-0.117,0.748,0.637,29.846,-22.644,-48.401
-0.218,0.785,0.623,4.639,-15.320,-50.049
-0.379,0.843,0.677,-29.358,0.183,-37.659
-0.494,0.944,0.803,-62.744,29.541,-12.512
-0.491,0.921,0.915,-87.341,55.603,32.471
-0.395,0.865,0.996,-97.595,71.960,84.106
-0.179,-1.273,1.453,-84.595,21.118,-135.010
-0.332,-1.351,1.563,-72.021,37.292,-122.070
-0.428,-1.321,1.606,-47.302,47.729,-93.872
-0.449,-1.191,1.552,-12.634,48.462,-55.847
-0.392,-0.962,1.424,27.588,35.095,-17.944
-0.319,-0.630,1.288,65.308,17.639,13.611
-0.218,-0.281,1.115,94.666,5.432,37.842
-0.118,0.062,0.969,107.483,-7.263,53.772
-0.040,0.366,0.839,103.516,-8.911,61.279
0.016,0.597,0.764,89.905,-4.333,61.096
0.041,0.766,0.741,71.106,-0.854,55.176
0.065,0.857,0.746,53.711,3.296,47.852
0.106,0.864,0.750,40.527,6.714,41.138
0.127,0.818,0.785,28.992,3.479,32.959
0.122,0.726,0.845,18.677,-1.465,24.231
0.130,0.591,0.910,11.108,2.625,19.470
0.133,0.451,0.976,6.165,4.333,16.663
0.128,0.319,1.013,4.761,2.014,15.015
0.086,0.210,1.042,5.371,0.305,13.977
0.053,0.114,1.070,8.850,-2.258,13.611
0.021,0.073,1.077,14.648,-2.197,15.015
0.025,0.109,1.053,19.897,-2.014,16.907
0.032,0.165,1.017,24.841,-2.197,17.334
0.038,0.208,0.993,29.846,-0.061,16.907
0.035,0.259,0.953,29.663,8.545,16.968
0.034,0.303,0.928,25.146,10.620,16.541
0.026,0.311,0.916,19.897,9.460,15.991
0.020,0.320,0.922,15.137,3.418,15.259
0.029,0.312,0.920,14.587,1.709,14.465
0.037,0.299,0.926,17.151,4.822,12.756
0.029,0.293,0.928,20.264,5.615,10.742
0.046,0.271,0.925,22.583,4.944,9.338
0.057,0.249,0.923,23.437,-1.465,7.568
0.039,0.235,0.917,25.818,1.160,4.639
0.010,0.224,0.912,25.940,10.071,1.526
-0.017,0.219,0.887,22.644,12.512,0.366
-0.038,0.214,0.874,18.433,13.000,1.282
-0.062,0.217,0.872,13.428,9.155,4.150
-0.068,0.233,0.884,8.789,0.244,7.996
-0.056,0.233,0.889,6.348,-2.136,11.963
-0.026,0.236,0.895,5.066,0.244,16.418
-0.011,0.250,0.913,3.540,-1.770,18.738
0.009,0.249,0.947,2.075,-9.155,19.165
0.037,0.252,0.978,2.991,-14.771,18.982
0.044,0.250,1.005,6.714,-14.954,17.517
0.047,0.240,1.013,10.986,-13.550,14.587
0.049,0.226,1.001,15.991,-10.071,11.230
0.027,0.208,0.979,19.104,-2.930,7.080
-0.007,0.188,0.952,18.616,5.554,3.845
-0.042,0.186,0.921,16.113,7.507,2.991
-0.054,0.188,0.898,13.550,2.869,4.028
-0.058,0.197,0.883,11.963,2.502,6.104
-0.049,0.193,0.878,8.911,3.906,8.911
-0.039,0.178,0.894,5.432,2.075,12.024
-0.039,0.173,0.922,2.808,-1.892,15.076
-0.036,0.175,0.944,3.296,-10.071,17.456
-0.021,0.174,0.958,6.470,-10.315,18.616
-0.014,0.171,0.975,8.362,-7.874,18.311
-0.015,0.169,0.989,8.545,-8.972,17.395
-0.025,0.179,1.004,6.897,-11.108,16.418
-0.023,0.212,1.000,5.493,-13.367,16.174
0.006,0.225,0.989,6.775,-11.047,16.296
0.027,0.219,0.965,8.667,-1.770,14.771
0.026,0.216,0.955,8.667,6.836,12.573
0.018,0.211,0.933,11.597,6.531,9.705
0.003,0.187,0.911,17.517,9.521,6.409
-0.010,0.152,0.896,19.592,13.367,4.211
-0.028,0.104,0.891,18.433,7.812,4.211
-0.050,0.059,0.901,16.113,5.615,5.798
-0.089,0.042,0.933,11.780,10.803,9.766
-0.083,0.029,0.957,7.019,7.263,15.808
-0.070,0.039,0.989,5.371,-1.221,20.813
-0.041,0.054,0.995,6.348,-5.310,24.475
-0.011,0.054,0.992,9.583,-7.568,27.039
0.003,0.044,1.001,12.512,-6.897,28.625
0.026,0.015,1.005,12.878,-1.343,29.663
0.052,-0.033,1.010,11.292,4.089,30.029
0.074,-0.102,1.030,10.071,0.854,28.870
0.068,-0.197,1.053,9.033,1.038,27.588
0.054,-0.297,1.083,7.507,6.775,28.320
0.034,-0.390,1.105,6.287,14.709,31.189
0.008,-0.468,1.115,5.615,19.470,35.767
-0.025,-0.528,1.121,8.545,17.029,42.297
-0.038,-0.563,1.103,13.062,21.790,51.758
-0.022,-0.580,1.077,17.700,17.090,62.439
-0.020,-0.579,1.045,21.912,21.118,71.655
-0.013,-0.562,1.005,22.095,23.743,80.505
-0.004,-0.541,0.965,19.836,21.240,88.318
-0.013,-0.512,0.929,15.991,17.883,94.727
-0.019,-0.470,0.897,11.414,17.883,100.220
-0.009,-0.415,0.865,7.080,23.926,104.370
-0.010,-0.359,0.860,1.404,25.513,105.225
-0.060,-0.306,0.861,-3.723,26.855,103.577
-0.141,-0.277,0.866,-10.620,27.283,105.225
-0.214,-0.244,0.889,-15.686,30.762,111.511
-0.256,-0.207,0.897,-19.470,43.518,122.131
-0.282,-0.172,0.918,-19.470,44.617,134.460
-0.292,-0.125,0.958,-13.733,47.852,144.958
-0.272,-0.078,0.993,-4.517,48.462,152.466
-0.242,-0.033,1.006,9.583,42.969,156.311
-0.206,0.022,1.006,23.621,37.903,156.311
-0.147,0.092,0.983,33.325,34.546,151.917
-0.089,0.160,0.960,39.185,30.212,143.250
-0.085,0.192,0.932,38.757,24.658,130.676
-0.095,0.231,0.928,33.203,23.437,119.202
-0.063,0.286,0.917,28.748,28.625,109.741
-0.012,0.341,0.903,23.132,28.625,97.778
0.023,0.389,0.874,16.541,28.015,80.383
-0.030,0.403,0.922,10.803,29.785,57.861
-0.215,0.396,0.952,5.066,34.241,37.964
-0.333,0.387,0.963,0.671,51.636,37.415
-0.392,0.406,0.928,2.686,68.298,56.091
-0.417,0.475,0.876,12.634,74.158,76.843
-0.322,0.601,0.839,26.428,67.261,85.815
-0.218,0.737,0.781,39.185,41.626,76.477
-0.130,0.874,0.702,52.368,23.437,49.561
-0.043,0.975,0.636,60.974,15.991,15.320
-0.008,0.996,0.657,59.692,5.371,-17.090
-0.068,0.993,0.720,41.870,-14.587,-47.729
-0.712,0.835,1.001,-26.672,-5.432,13.306
-0.498,0.888,1.001,-34.546,28.137,85.876
-0.291,0.942,0.966,-39.856,58.350,136.353
-0.039,1.005,0.914,-45.166,56.702,148.865
0.151,1.032,0.904,-42.847,41.443,124.939
0.289,1.042,0.945,-32.532,23.499,83.313
0.364,0.982,0.999,-18.372,2.319,39.917
0.333,0.855,1.043,-10.742,-15.991,3.540
0.207,0.774,1.066,-14.832,-22.034,-23.132
0.052,0.662,1.144,-23.193,-14.038,-37.292
-0.048,0.495,1.202,-34.790,-1.465,-35.217
-0.084,0.343,1.222,-46.875,17.090,-23.987
-0.095,0.224,1.226,-51.819,40.955,-13.855
-0.125,0.139,1.208,-50.598,54.382,-10.498
-0.151,0.106,1.169,-39.124,53.162,-10.071
-0.146,0.121,1.096,-17.151,41.992,-7.935
-0.123,0.159,1.006,7.263,18.860,-5.981
-0.115,0.214,0.935,28.687,-5.615,-6.653
-0.101,0.278,0.889,40.771,-25.391,-9.094
-0.101,0.331,0.866,42.358,-39.673,-9.277
-0.092,0.353,0.885,37.292,-48.401,-6.409
-0.083,0.369,0.930,29.236,-45.593,-0.671
-0.043,0.377,0.965,20.935,-46.326,7.507
-0.011,0.374,0.995,13.184,-36.438,13.062
-0.015,0.362,1.012,8.240,-30.640,14.832
-0.028,0.355,1.008,4.150,-29.602,16.113
-0.025,0.331,0.991,1.953,-27.222,17.029
-0.037,0.313,0.971,2.930,-21.423,16.907
-0.078,0.317,0.935,7.385,-16.907,17.029
-0.082,0.324,0.918,12.268,-20.813,18.921
-0.059,0.331,0.890,16.296,-25.818,20.142
-0.017,0.361,0.873,18.188,-30.273,16.357
-0.018,0.393,0.887,19.653,-28.564,9.094
-0.064,0.404,0.935,22.644,-32.166,1.831
-0.084,0.424,0.936,22.339,-40.100,-2.197
-0.075,0.440,0.929,20.020,-32.349,-2.380
-0.083,0.451,0.924,17.212,-23.560,-3.540
-0.088,0.471,0.895,13.306,-18.188,-5.554
-0.068,0.507,0.860,6.897,-17.151,-9.399
-0.081,0.520,0.849,0.183,-17.578,-15.076
-0.118,0.520,0.861,-4.456,-18.127,-21.362
-0.129,0.535,0.860,-4.944,-19.653,-27.710
-0.137,0.546,0.871,2.136,-23.010,-34.912
-0.177,0.534,0.864,13.794,-27.954,-42.114
-0.193,0.552,0.834,25.879,-28.259,-48.462
-0.231,0.587,0.835,34.790,-28.564,-56.152
-0.278,0.626,0.813,39.856,-36.560,-62.683
-0.274,0.651,0.772,39.063,-42.236,-66.528
-0.272,0.712,0.730,35.278,-42.908,-71.777
-0.298,0.767,0.733,29.541,-46.570,-79.346
-0.371,0.789,0.759,20.874,-49.133,-82.275
-0.402,0.781,0.796,10.742,-43.457,-76.416
-0.355,0.722,0.823,0.916,-30.273,-64.392
-0.272,0.666,0.836,-6.287,-20.752,-55.115
-0.263,0.663,0.915,-5.981,-20.325,-55.664
-0.280,0.615,0.927,1.526,-24.841,-62.134
-0.193,0.526,0.907,10.559,-29.785,-68.909
-0.129,0.424,0.886,16.296,-42.236,-78.430
-0.128,0.365,0.884,21.606,-53.284,-96.191
-0.166,0.313,0.887,22.644,-61.707,-117.310
-0.199,0.264,0.893,19.165,-63.782,-133.606
-0.221,0.175,0.903,10.193,-63.660,-141.724
-0.243,0.064,0.912,-3.113,-62.500,-142.883
-0.265,-0.020,0.924,-17.334,-60.364,-141.968
-0.343,-0.114,0.974,-28.259,-53.040,-140.442
-0.423,-0.162,0.992,-35.828,-43.274,-133.728
-0.416,-0.169,0.998,-37.903,-31.433,-120.422
-0.433,-0.173,1.002,-35.400,-26.733,-106.079
-0.374,-0.129,0.986,-29.297,-27.344,-97.656
-0.323,-0.068,1.018,-21.240,-37.781,-96.008
-0.339,0.023,1.037,-15.259,-57.983,-97.961
-0.299,0.031,1.055,-8.057,-65.735,-99.976
-0.292,0.011,1.069,-4.211,-64.392,-100.586
-0.299,0.011,1.040,-5.127,-57.861,-97.595
-0.249,0.018,1.036,-9.338,-48.096,-94.910
-0.193,-0.025,1.056,-17.151,-34.424,-92.834
-0.144,-0.103,1.059,-28.381,-27.710,-94.971
-0.061,-0.179,1.090,-37.903,-31.921,-102.234
-0.052,-0.271,1.108,-46.753,-32.104,-113.525
-0.100,-0.398,1.110,-55.359,-22.461,-125.916
-0.115,-0.542,1.124,-64.392,-7.385,-132.019
-0.186,-0.676,1.137,-72.144,2.075,-131.348
-0.277,-0.757,1.151,-75.867,8.362,-124.146
-0.358,-0.792,1.171,-74.585,19.897,-109.863
-0.397,-0.804,1.186,-69.397,19.043,-86.914
-0.385,-0.767,1.196,-58.105,11.169,-58.960
-0.385,-0.669,1.197,-42.908,2.930,-32.471
-0.309,-0.500,1.174,-23.193,-2.747,-7.507
-0.194,-0.318,1.140,-3.845,-8.179,13.245
-0.097,-0.123,1.092,12.512,-12.390,25.635
-0.016,0.081,1.049,25.024,-13.184,27.771
0.016,0.257,1.007,33.020,-9.460,22.400
0.009,0.380,0.959,36.072,-0.366,13.489
-0.021,0.450,0.917,33.325,10.681,5.127
-0.072,0.495,0.880,25.208,18.188,0.427
-0.102,0.514,0.839,14.771,22.217,0.916
-0.113,0.496,0.822,4.578,25.940,4.456
-0.112,0.472,0.826,-4.395,26.794,7.935
-0.104,0.432,0.854,-10.681,22.461,8.972
-0.100,0.398,0.915,-12.634,16.907,8.667
-0.095,0.367,0.967,-7.446,12.878,8.606
-0.078,0.333,0.977,2.686,7.996,8.972
-0.053,0.296,0.956,13.611,4.272,8.972
-0.048,0.278,0.919,20.569,2.319,6.897
-0.052,0.282,0.870,22.583,2.075,3.967
-0.073,0.299,0.848,20.264,3.052,1.648
-0.094,0.313,0.840,12.939,6.104,0.549
-0.094,0.319,0.836,5.981,14.893,1.953
-0.082,0.341,0.825,1.648,14.832,3.479
-0.060,0.339,0.827,-1.709,6.409,3.235
-0.067,0.329,0.853,-3.174,-0.549,0.916
-0.083,0.312,0.876,-4.333,-1.587,-1.160
-0.091,0.297,0.894,-2.319,-1.160,-1.160
-0.094,0.273,0.917,0.793,-2.319,-0.244
-0.114,0.267,0.923,6.226,-0.854,1.404
-0.127,0.267,0.912,9.094,-2.502,4.456
-0.118,0.283,0.895,12.207,0.488,7.568
-0.110,0.315,0.881,12.085,-0.854,8.972
-0.116,0.343,0.875,12.329,-4.211,9.277
-0.131,-0.848,1.509,-68.481,-9.705,-30.640
-0.106,-0.735,1.475,-30.396,-7.324,-20.264
-0.102,-0.573,1.362,10.925,-4.272,-13.367
-0.133,-0.374,1.221,44.617,-1.343,-9.277
-0.160,-0.152,1.090,66.650,-2.136,-6.348
-0.193,0.040,0.972,76.782,-1.770,1.404
-0.175,0.234,0.875,74.402,0.671,14.709
-0.113,0.401,0.806,64.148,2.808,27.161
-0.060,0.542,0.753,50.110,0.061,33.813
0.013,0.622,0.730,35.706,-2.319,35.583
0.067,0.644,0.735,21.729,-0.244,34.546
0.085,0.625,0.770,8.362,3.723,31.067
0.080,0.546,0.803,-2.014,7.263,27.161
0.047,0.462,0.836,-6.470,9.949,23.926
0.003,0.407,0.852,-5.127,10.498,21.057
0.001,0.364,0.859,0.488,9.827,19.470
0.000,0.322,0.850,7.507,4.639,17.273
-0.005,0.289,0.854,12.024,-1.892,14.893
-0.015,0.282,0.849,13.184,-7.263,12.512
0.000,0.288,0.841,11.536,-9.460,10.742
0.011,0.296,0.848,7.874,-10.925,8.484
-0.044,0.317,0.894,3.174,-13.062,5.432
-0.078,0.322,0.935,-0.671,-13.428,6.958
-0.047,0.297,0.976,-2.563,-10.376,14.404
-0.016,0.268,1.001,-1.038,-9.521,21.240
0.008,0.262,1.007,4.517,-8.362,24.231
0.017,0.260,1.005,13.977,-7.019,23.682
-0.010,0.263,0.997,22.644,-4.333,21.362
-0.015,0.280,0.957,28.809,-2.075,20.386
-0.011,0.293,0.918,32.715,0.488,19.958
-0.034,0.332,0.891,32.898,0.244,18.372
-0.045,0.377,0.857,29.236,-0.122,16.052
-0.029,0.390,0.843,22.827,1.587,15.198
-0.006,0.417,0.835,14.587,2.625,13.489
0.002,0.440,0.833,6.775,2.380,10.864
0.004,0.428,0.836,2.075,2.136,8.057
0.008,0.401,0.844,-1.709,1.892,5.554
-0.006,0.381,0.858,-3.479,1.770,3.235
-0.022,0.355,0.865,-2.319,1.770,1.892
-0.031,0.333,0.876,0.977,1.404,1.465
-0.061,0.316,0.895,4.333,-0.366,2.075
-0.069,0.302,0.901,6.226,-2.014,4.883
-0.058,0.310,0.907,6.470,-2.808,8.911
-0.040,0.323,0.919,6.104,-4.456,10.803
-0.032,0.331,0.932,5.859,-7.019,10.071
-0.038,0.337,0.949,5.127,-6.958,7.935
-0.061,0.331,0.961,3.540,-5.859,7.080
-0.063,0.308,0.958,1.770,-3.479,8.789
-0.062,0.290,0.958,2.441,-0.061,11.597
-0.057,0.286,0.961,4.639,2.930,12.939
-0.054,0.284,0.963,7.263,4.272,13.000
-0.050,0.278,0.962,10.132,1.953,12.817
-0.064,0.287,0.960,13.367,-1.465,12.085
-0.075,0.295,0.947,16.235,-3.540,12.329
-0.070,0.286,0.930,18.555,-5.005,13.916
-0.063,0.270,0.917,19.409,-3.723,15.747
-0.058,0.244,0.908,16.785,-1.526,17.212
-0.056,0.216,0.908,10.803,-0.854,18.494
-0.054,0.200,0.916,4.700,3.235,19.104
-0.054,0.168,0.935,0.061,3.723,20.508
-0.052,0.140,0.956,-3.784,4.395,22.705
-0.055,0.124,0.983,-6.836,2.991,25.818
-0.045,0.103,1.005,-5.859,3.418,28.870
-0.043,0.078,1.022,-1.099,10.132,31.799
-0.045,0.061,1.019,5.615,14.465,35.156
-0.035,0.050,1.000,9.338,14.954,38.757
-0.026,0.038,0.976,11.597,13.000,41.443
-0.027,0.023,0.959,12.573,11.353,42.786
-0.038,0.002,0.952,11.658,7.874,44.250
-0.048,-0.022,0.953,9.155,6.470,46.875
-0.047,-0.055,0.967,5.859,9.583,50.415
-0.037,-0.086,0.993,1.770,15.137,53.467
-0.030,-0.117,1.015,-4.089,19.470,55.603
-0.024,-0.154,1.048,-10.864,21.423,57.007
-0.031,-0.197,1.081,-18.555,20.386,58.838
-0.046,-0.242,1.104,-25.452,18.860,61.707
-0.069,-0.282,1.119,-28.320,22.278,66.589
-0.076,-0.312,1.119,-26.550,30.029,73.242
-0.090,-0.324,1.127,-22.949,38.330,79.224
-0.126,-0.323,1.118,-16.235,35.889,84.534
-0.135,-0.306,1.107,-5.737,37.292,90.576
-0.151,-0.274,1.090,5.249,40.344,96.924
-0.160,-0.247,1.060,14.893,42.542,101.929
-0.147,-0.207,1.024,22.888,37.964,104.065
-0.135,-0.167,0.995,28.992,32.104,103.149
-0.121,-0.123,0.952,31.860,23.132,98.755
-0.096,-0.075,0.910,30.945,22.217,89.783
-0.074,-0.028,0.879,26.184,16.968,75.378
-0.082,0.013,0.856,18.860,6.531,55.664
-0.139,0.050,0.849,11.230,-0.366,34.424
-0.199,0.086,0.843,2.686,-6.470,16.052
-0.232,0.144,0.833,-5.432,-8.850,2.441
-0.253,0.197,0.826,-10.803,-4.089,-6.531
-0.271,0.243,0.834,-14.709,-4.883,-13.794
-0.312,0.279,0.850,-15.930,-9.766,-19.531
-0.366,0.294,0.877,-16.052,-5.615,-18.616
-0.422,0.319,0.890,-15.137,1.587,-7.935
-0.402,0.349,0.875,-16.052,9.827,9.094
-0.351,0.382,0.868,-12.878,22.766,26.978
-0.290,0.400,0.903,-6.836,27.405,40.771
-0.397,0.506,0.823,-0.977,24.292,47.363
-0.344,0.608,0.842,6.897,34.607,56.702
-0.270,0.644,0.828,9.827,44.739,74.524
-0.232,0.689,0.837,7.935,52.063,87.341
-0.208,0.725,0.792,5.798,51.392,90.576
-0.215,0.775,0.780,8.301,59.326,86.304
-0.190,0.832,0.756,12.390,59.265,76.660
-0.165,0.896,0.703,16.296,64.880,62.622
-0.169,0.996,0.660,20.325,64.819,47.913
-0.161,1.101,0.656,17.883,63.965,38.879
-0.152,1.160,0.651,12.085,73.059,39.001
-0.128,1.166,0.629,1.953,81.848,46.570
-0.099,1.153,0.623,-11.841,94.910,58.105
-0.064,1.105,0.612,-26.489,103.821,69.519
-0.036,1.051,0.607,-39.246,107.910,76.721
0.001,1.002,0.625,-46.448,103.516,77.209
0.045,0.956,0.660,-44.922,90.820,72.021
0.090,0.919,0.693,-33.142,68.665,62.195
0.134,0.894,0.712,-14.709,39.124,49.866
-0.513,-1.220,1.578,-209.167,7.202,-144.592
-0.462,-1.420,1.767,-205.505,8.728,-101.746
-0.389,-1.473,1.900,-171.692,10.498,-59.021
-0.255,-1.411,1.963,-111.389,12.268,-20.996
-0.150,-1.212,1.888,-36.194,11.902,6.409
-0.064,-0.944,1.714,38.330,11.292,22.888
-0.046,-0.615,1.481,96.924,14.587,31.738
-0.059,-0.281,1.252,129.761,23.804,36.560
-0.114,0.025,1.045,139.832,36.255,39.612
-0.150,0.289,0.880,132.751,49.194,44.189
-0.176,0.528,0.750,116.760,55.908,50.049
-0.162,0.724,0.645,99.792,52.185,56.335
-0.113,0.862,0.574,85.815,38.696,59.265
-0.038,0.937,0.551,73.547,20.203,57.129
0.044,0.953,0.558,59.631,1.526,50.720
0.118,0.913,0.590,41.077,-12.146,41.931
0.147,0.805,0.651,18.311,-18.005,33.325
0.176,0.660,0.723,-4.456,-15.808,26.367
0.156,0.503,0.805,-22.156,-11.292,21.423
0.118,0.351,0.881,-31.860,-9.033,17.395
0.084,0.206,0.941,-31.006,-7.874,15.076
0.049,0.124,0.983,-20.020,-7.935,13.916
0.017,0.116,0.993,-4.395,-7.507,12.634
0.013,0.148,0.982,11.475,-6.470,12.634
0.028,0.189,0.959,23.865,-7.019,12.695
0.031,0.224,0.936,29.358,-7.874,13.672
0.021,0.280,0.914,29.114,-8.301,14.221
0.007,0.331,0.902,26.062,-7.385,14.771
0.007,0.366,0.889,21.362,-5.615,15.320
0.006,0.385,0.897,15.076,-6.104,14.465
0.002,0.392,0.907,8.301,-7.935,12.817
0.009,0.384,0.916,3.052,-7.446,11.658
0.004,0.362,0.939,0.366,-5.615,10.193
-0.005,0.319,0.962,-0.183,-4.028,8.850
-0.005,0.279,0.966,2.197,-2.075,8.606
-0.001,0.247,0.960,5.859,-0.977,7.812
0.001,0.236,0.947,10.803,-0.977,6.470
-0.007,0.230,0.936,15.808,-1.038,4.761
-0.028,0.247,0.922,17.395,-2.319,3.296
-0.041,0.280,0.912,16.479,-2.014,3.113
-0.031,0.315,0.895,14.526,-1.648,3.906
-0.021,0.349,0.876,11.780,-2.380,3.662
-0.024,0.375,0.882,7.812,-2.625,2.380
-0.031,0.384,0.896,2.502,-2.258,2.075
-0.018,0.368,0.921,-2.014,-0.671,3.540
-0.001,0.336,0.937,-3.113,0.244,4.700
0.015,0.299,0.949,0.305,0.427,3.845
-0.006,0.264,0.963,5.310,0.061,1.953
-0.008,0.235,0.958,9.460,0.488,1.465
-0.005,0.211,0.940,12.085,1.770,2.625
-0.015,0.211,0.921,13.489,3.052,3.357
-0.012,0.221,0.895,13.245,4.272,3.784
-0.030,0.245,0.872,10.376,5.005,3.296
-0.042,0.272,0.859,6.287,5.737,3.113
-0.041,0.297,0.865,1.587,5.493,4.211
-0.029,0.312,0.874,-2.563,4.333,5.920
-0.021,0.313,0.902,-3.296,1.953,7.019
-0.004,0.312,0.922,-0.549,-0.427,7.263
0.010,0.306,0.931,3.601,-2.869,6.104
0.013,0.293,0.942,7.263,-4.150,4.272
0.012,0.274,0.942,9.277,-4.333,2.136
0.001,0.252,0.936,9.338,-3.479,0.793
-0.026,0.223,0.935,7.874,-2.075,0.061
-0.061,0.178,0.938,5.798,-2.197,0.610
-0.068,0.136,0.954,2.686,-2.136,3.418
-0.076,0.119,0.973,-1.038,-1.770,6.897
-0.074,0.126,0.989,-2.625,-2.625,9.705
-0.054,0.121,1.008,-2.441,-4.578,11.719
-0.045,0.120,1.030,-2.625,-6.104,12.817
-0.048,0.120,1.056,-3.845,-6.409,14.221
-0.055,0.110,1.083,-4.456,-4.211,16.846
-0.039,0.092,1.098,-3.113,-1.465,20.630
-0.021,0.062,1.102,0.427,0.977,23.987
-0.012,0.033,1.106,6.104,2.686,25.330
-0.000,-0.004,1.123,12.878,3.845,25.146
0.018,-0.050,1.121,19.592,4.883,25.208
0.034,-0.104,1.111,25.085,6.348,25.635
0.049,-0.162,1.099,28.687,8.667,26.062
0.057,-0.219,1.091,29.602,11.841,27.222
0.049,-0.273,1.097,28.320,15.198,30.029
0.025,-0.321,1.106,26.001,18.494,34.973
0.015,-0.354,1.109,22.827,21.729,42.542
0.010,-0.384,1.102,20.508,24.597,51.819
0.018,-0.405,1.086,18.372,26.794,61.584
0.029,-0.417,1.067,16.479,30.884,70.068
0.040,-0.411,1.040,13.855,33.936,76.782
0.033,-0.407,1.003,11.169,35.950,82.764
0.033,-0.403,0.965,7.812,40.649,87.708
0.032,-0.386,0.920,2.747,44.373,90.515
0.045,-0.357,0.870,-3.784,46.875,89.905
0.056,-0.325,0.828,-11.475,46.265,85.999
0.037,-0.297,0.809,-21.179,42.419,79.529
-0.001,-0.262,0.798,-32.593,34.546,73.486
-0.075,-0.253,0.821,-44.678,27.222,71.045
-0.142,-0.265,0.817,-57.434,23.010,75.256
-0.166,-0.275,0.797,-69.946,25.940,86.792
-0.166,-0.276,0.779,-83.008,32.837,99.426
-0.163,-0.260,0.785,-95.215,39.124,107.239
-0.164,-0.203,0.809,-104.431,42.725,108.521
-0.150,-0.145,0.825,-106.262,45.898,106.079
-0.106,-0.088,0.851,-98.999,47.913,98.938
-0.109,-0.025,0.865,-83.130,49.316,84.106
-0.141,0.075,0.857,-61.279,43.884,63.110
-0.165,0.207,0.839,-39.001,39.246,38.757
-0.223,0.336,0.841,-14.526,23.010,16.357
-0.380,0.419,0.841,9.033,15.564,5.493
-0.504,0.504,0.858,24.475,18.555,13.000
-0.571,0.586,0.844,31.799,30.457,32.837
-0.591,0.717,0.811,36.865,45.593,54.382
-0.634,0.846,0.836,42.908,49.133,69.519
-0.777,1.064,0.749,54.260,40.039,82.764
-0.731,1.237,0.695,68.176,44.434,110.107
-0.537,1.408,0.587,73.120,51.331,139.587
-0.299,1.543,0.503,68.115,41.870,157.104
-0.137,1.646,0.395,54.016,20.935,154.114
-0.055,1.684,0.326,32.898,6.775,131.836
-0.022,1.673,0.364,8.240,-0.183,101.440
-0.022,1.590,0.443,-14.404,0.305,71.228
-0.032,1.440,0.530,-36.255,7.751,43.884
-0.340,-0.814,1.544,-157.776,5.127,-18.066
-0.252,-0.740,1.585,-130.066,10.986,9.705
-0.140,-0.613,1.578,-83.679,11.597,28.625
-0.072,-0.470,1.487,-29.602,5.920,35.156
-0.046,-0.297,1.359,16.907,0.488,32.288
-0.061,-0.115,1.225,49.194,0.671,29.724
-0.098,0.061,1.102,66.650,9.216,30.884
-0.118,0.222,0.984,71.777,20.569,35.217
-0.099,0.366,0.880,67.688,32.349,41.504
-0.072,0.491,0.817,59.692,38.696,45.898
-0.063,0.598,0.779,50.598,37.292,48.035
-0.038,0.693,0.751,43.335,32.104,49.377
0.020,0.751,0.736,38.086,24.902,48.584
0.075,0.755,0.736,32.837,16.602,45.105
0.119,0.717,0.755,25.513,7.874,37.903
0.129,0.632,0.797,15.747,2.319,29.724
0.126,0.532,0.839,4.639,1.343,23.437
0.110,0.429,0.884,-4.578,5.066,18.738
0.061,0.355,0.908,-9.888,7.385,15.381
0.038,0.306,0.926,-8.545,10.071,13.428
0.023,0.288,0.923,-1.648,10.803,11.597
0.022,0.314,0.902,8.484,8.911,8.301
0.013,0.339,0.883,18.799,6.897,4.700
-0.013,0.354,0.870,25.024,3.967,2.319
-0.004,0.367,0.842,25.940,3.357,3.479
0.011,0.366,0.814,22.522,2.380,5.188
0.008,0.362,0.819,16.357,-0.549,4.761
-0.030,0.363,0.839,11.108,0.610,3.235
-0.043,0.346,0.859,6.104,-1.831,4.333
-0.049,0.335,0.880,3.662,1.221,7.874
-0.036,0.335,0.891,2.869,-2.441,11.108
-0.007,0.339,0.910,4.822,-1.953,12.878
-0.003,0.351,0.925,6.897,-4.211,12.451
-0.006,0.369,0.923,10.620,-2.502,12.451
0.013,0.388,0.909,14.771,-0.122,12.695
0.019,0.412,0.891,17.700,0.549,11.658
0.025,0.424,0.867,19.348,0.549,9.705
0.026,0.430,0.847,18.005,0.488,7.507
0.013,0.456,0.838,13.550,0.671,4.700
0.006,0.468,0.825,7.874,2.197,1.648
-0.006,0.466,0.833,1.587,3.174,-1.343
-0.030,0.453,0.856,-4.272,1.892,-3.845
-0.043,0.417,0.874,-8.728,1.709,-3.845
-0.036,0.371,0.888,-10.925,1.892,-1.160
-0.038,0.328,0.909,-10.620,1.221,1.526
-0.051,0.312,0.916,-7.263,-0.305,3.662
-0.047,0.313,0.918,-1.526,-0.732,6.042
-0.037,0.322,0.907,4.333,-1.099,8.057
-0.027,0.336,0.898,8.484,-2.441,9.155
-0.011,0.350,0.888,9.583,-2.258,9.583
-0.007,0.368,0.882,7.385,-1.648,8.789
-0.004,0.385,0.874,3.113,-0.305,7.996
-0.009,0.403,0.876,-1.709,1.343,6.775
-0.029,0.410,0.889,-5.798,2.747,5.798
-0.032,0.413,0.903,-7.263,3.235,6.042
-0.028,0.418,0.914,-5.676,2.930,7.324
-0.009,0.406,0.915,-0.549,1.648,8.118
-0.006,0.404,0.905,6.104,0.732,7.446
-0.006,0.420,0.890,11.841,0.061,5.676
-0.012,0.419,0.871,15.015,-0.122,4.150
-0.015,0.411,0.855,14.038,0.305,3.784
-0.035,0.408,0.848,9.766,0.610,4.517
-0.038,0.402,0.852,5.066,1.526,6.714
-0.038,0.401,0.864,0.916,0.732,8.728
-0.035,0.394,0.882,-1.770,-1.221,10.071
-0.023,0.383,0.901,-3.296,-2.502,11.292
0.000,0.362,0.929,-3.723,-2.136,11.841
-0.007,0.343,0.957,-3.113,-1.099,10.559
-0.006,0.325,0.973,-0.488,1.953,9.949
-0.010,0.296,0.977,3.052,4.456,9.460
-0.017,0.275,0.979,5.920,6.165,8.667
-0.030,0.258,0.971,7.874,5.798,8.484
-0.040,0.250,0.964,9.338,6.653,9.583
-0.049,0.253,0.947,9.827,5.493,11.230
-0.046,0.253,0.930,10.498,4.211,13.062
-0.036,0.246,0.918,11.963,2.380,15.137
-0.031,0.234,0.911,11.963,1.953,17.700
-0.034,0.236,0.910,9.888,1.282,20.142
-0.039,0.246,0.914,8.972,1.404,21.912
-0.046,0.240,0.925,7.874,0.305,23.499
-0.036,0.225,0.939,6.348,-1.465,25.696
-0.022,0.206,0.961,4.761,-1.404,27.710
-0.010,0.179,0.994,1.709,-2.014,28.992
-0.007,0.130,1.031,-2.075,-1.465,29.785
-0.007,0.070,1.073,-7.324,1.526,31.250
-0.006,-0.008,1.111,-12.695,4.150,33.813
0.001,-0.098,1.142,-17.883,6.836,37.354
0.005,-0.179,1.178,-23.254,9.827,41.748
0.013,-0.264,1.202,-27.344,13.794,47.791
0.017,-0.333,1.221,-28.259,19.226,55.664
0.023,-0.391,1.225,-24.109,25.879,64.758
0.020,-0.425,1.206,-13.733,31.738,73.120
0.000,-0.431,1.169,1.038,36.072,79.529
-0.018,-0.424,1.125,16.479,39.246,84.412
-0.043,-0.410,1.079,28.442,42.480,89.661
-0.074,-0.391,1.031,35.461,44.006,95.032
-0.096,-0.362,0.985,37.720,45.837,99.487
-0.105,-0.324,0.932,36.926,45.959,102.295
-0.112,-0.276,0.886,33.630,43.823,102.722
-0.132,-0.228,0.855,28.625,37.598,100.525
-0.170,-0.190,0.835,21.301,28.015,96.741
-0.228,-0.153,0.841,10.742,19.226,94.543
-0.303,-0.132,0.840,-3.052,16.724,98.145
-0.358,-0.106,0.835,-20.142,23.621,110.474
-0.374,-0.062,0.870,-36.499,38.269,129.150
-0.329,-0.003,0.945,-43.762,58.533,148.071
-0.217,0.050,0.987,-35.645,71.838,159.485
-0.111,0.107,0.996,-11.475,72.571,155.701
-0.028,0.174,0.964,20.813,62.195,135.376
-0.006,0.243,0.892,52.979,45.837,103.516
-0.028,0.319,0.796,79.346,30.457,66.833
-0.092,0.426,0.702,92.346,14.160,30.640
-0.202,0.549,0.599,93.872,-9.460,-1.099
-0.303,0.646,0.512,83.008,-23.499,-23.743
-0.437,0.762,0.485,59.204,-35.828,-31.921
-0.598,0.844,0.506,24.902,-36.743,-21.667
-0.700,0.841,0.611,-17.090,-25.696,4.578
-0.862,0.809,0.674,-63.904,-2.319,44.128
-0.713,0.776,0.912,-99.060,43.335,95.703
-0.360,-0.955,1.407,-130.676,14.954,-83.740
-0.352,-0.950,1.449,-121.216,31.006,-44.861
-0.293,-0.860,1.458,-94.238,36.011,-12.634
-0.200,-0.693,1.430,-53.040,27.100,9.460
-0.182,-0.470,1.352,-7.202,9.033,23.621
-0.161,-0.220,1.244,33.936,-7.202,33.813
-0.048,0.032,1.128,63.477,-13.794,44.739
0.027,0.266,1.027,77.942,-15.564,52.307
0.105,0.468,0.943,77.759,-12.451,53.467
0.156,0.629,0.891,69.458,-3.784,49.683
0.163,0.747,0.856,57.739,7.019,43.518
0.164,0.818,0.825,46.814,16.541,37.659
0.164,0.828,0.803,38.879,21.851,32.715
0.148,0.781,0.789,32.593,23.499,28.442
0.136,0.696,0.787,27.466,23.499,25.513
0.122,0.605,0.803,22.644,24.231,23.071
0.114,0.527,0.812,18.921,23.560,20.691
0.112,0.450,0.816,15.747,21.179,19.165
0.099,0.395,0.819,13.184,17.395,17.761
0.072,0.354,0.825,11.047,13.916,16.479
0.061,0.341,0.823,8.850,11.108,17.334
0.062,0.326,0.826,7.874,8.789,20.325
0.079,0.336,0.826,7.812,4.395,23.376
0.084,0.347,0.838,10.071,-3.235,24.231
0.095,0.382,0.856,12.390,-2.625,23.254
0.117,0.411,0.877,9.399,-0.854,21.301
0.109,0.414,0.909,6.165,-3.601,19.287
0.116,0.414,0.909,4.944,-4.944,19.165
0.113,0.423,0.904,5.188,-2.930,18.616
0.103,0.441,0.892,6.836,-2.014,15.320
0.103,0.429,0.896,10.254,-1.892,11.475
0.092,0.407,0.906,11.780,2.136,8.240
0.082,0.394,0.912,9.033,1.282,7.385
0.078,0.362,0.914,7.141,3.296,7.996
0.082,0.334,0.914,6.775,5.371,9.644
0.089,0.320,0.912,7.690,7.812,10.681
0.082,0.320,0.910,11.658,4.272,9.766
0.075,0.328,0.895,15.015,2.563,8.057
0.071,0.354,0.882,19.165,2.441,6.653
0.054,0.392,0.875,19.836,3.479,5.066
0.028,0.421,0.873,21.179,0.793,4.272
0.031,0.449,0.850,20.325,3.601,6.042
0.043,0.469,0.824,18.494,3.540,8.728
0.045,0.497,0.822,14.404,0.793,9.644
0.051,0.499,0.829,11.841,-1.648,9.338
0.074,0.483,0.827,7.874,-3.357,9.644
0.095,0.449,0.836,6.470,-5.005,9.338
0.090,0.397,0.858,3.235,-4.028,8.301
0.068,0.358,0.880,1.282,-4.944,8.484
0.054,0.335,0.892,-0.427,-0.916,10.681
0.049,0.333,0.892,1.465,-3.540,12.939
0.049,0.338,0.891,5.249,-0.366,13.306
0.048,0.338,0.898,8.850,-5.737,12.634
0.043,0.351,0.908,11.536,-7.507,12.207
0.048,0.359,0.907,11.963,-6.042,12.695
0.054,0.346,0.909,11.475,-4.456,13.428
0.055,0.327,0.905,9.583,-3.540,13.916
0.037,0.316,0.909,7.751,-2.014,13.855
0.025,0.303,0.914,6.897,-1.648,14.954
0.031,0.285,0.916,7.080,-1.221,17.151
0.034,0.261,0.931,7.996,-1.343,18.799
0.044,0.227,0.946,9.094,-1.221,20.569
0.051,0.186,0.958,9.705,0.244,22.766
0.067,0.139,0.966,9.583,1.770,24.719
0.072,0.080,0.979,9.338,2.625,25.940
0.068,0.010,0.998,7.996,3.784,26.855
0.056,-0.059,1.010,5.371,5.493,29.114
0.047,-0.125,1.028,2.258,7.690,32.288
0.033,-0.181,1.041,-0.305,11.719,36.865
0.017,-0.227,1.056,-0.244,11.108,43.518
0.009,-0.262,1.065,1.831,14.771,51.392
0.023,-0.281,1.069,5.920,11.658,59.631
0.039,-0.293,1.066,10.620,14.771,66.772
0.055,-0.305,1.067,15.381,14.954,72.998
0.074,-0.308,1.067,18.066,14.099,78.369
0.096,-0.310,1.061,18.005,16.235,83.618
0.102,-0.310,1.052,16.357,18.433,87.952
0.103,-0.305,1.037,11.536,22.522,91.370
0.095,-0.294,1.013,6.897,30.823,93.323
0.085,-0.269,1.011,1.099,32.776,93.384
0.026,-0.256,1.009,-2.686,35.461,92.834
-0.047,-0.247,1.017,-6.592,33.813,94.360
-0.098,-0.234,1.015,-8.789,37.476,100.769
-0.124,-0.215,1.010,-9.644,42.175,110.535
-0.151,-0.181,0.996,-9.155,47.058,119.934
-0.174,-0.138,0.971,-5.432,49.683,127.930
-0.182,-0.084,0.957,0.610,51.636,133.484
-0.190,-0.028,0.928,8.118,48.889,136.475
-0.189,0.039,0.900,17.395,43.762,135.559
-0.180,0.127,0.869,27.344,35.889,129.211
-0.155,0.201,0.823,37.048,25.574,117.493
-0.162,0.284,0.797,45.654,11.963,99.976
-0.186,0.358,0.767,51.147,-0.366,79.407
-0.229,0.421,0.759,51.819,-9.094,59.448
-0.311,0.462,0.799,47.485,-14.343,44.067
-0.428,0.475,0.874,41.443,-17.639,38.635
-0.517,0.472,0.908,36.011,-8.179,46.204
-0.552,0.483,0.931,30.823,-2.563,62.683
-0.551,0.530,0.947,32.288,7.629,78.430
-0.562,0.600,0.945,36.865,7.324,89.722
-0.542,0.661,0.938,45.044,2.625,96.313
-0.637,0.786,0.783,51.636,-6.958,95.581
-0.421,0.896,0.865,56.519,11.169,96.069
-0.337,0.932,0.845,58.838,8.606,100.342
-0.284,0.963,0.805,57.495,-9.705,92.957
-0.262,0.978,0.744,56.885,-26.001,78.491
-0.272,1.038,0.675,55.237,-24.475,62.378
-0.267,1.145,0.606,51.514,-16.052,48.401
-0.266,1.297,0.563,42.847,-4.211,38.086
-0.270,1.426,0.540,28.259,6.531,34.363
-0.276,1.473,0.517,5.493,15.015,38.940
-0.269,1.463,0.540,-24.536,23.193,48.096
-0.204,1.428,0.592,-58.899,33.936,58.655
-0.087,1.391,0.677,-89.172,45.715,65.857
0.015,1.334,0.759,-108.887,48.218,64.453
0.102,1.275,0.849,-117.615,42.542,52.612
0.138,1.219,0.954,-113.342,31.372,32.898
0.150,1.140,1.024,-96.130,15.625,8.850
0.123,1.045,1.072,-69.214,0.671,-14.587
-0.409,1.705,0.562,5.310,53.406,94.116
-0.301,1.764,0.583,-3.235,39.978,94.116
-0.135,1.776,0.601,-11.841,25.146,95.093
0.049,1.741,0.645,-16.724,12.085,91.919
0.180,1.673,0.705,-17.212,-0.122,81.787
0.258,1.606,0.756,-14.648,-13.733,66.711
0.269,1.548,0.810,-10.254,-20.081,49.683
0.228,1.499,0.856,-7.019,-24.170,31.860
0.169,1.449,0.885,-2.930,-27.832,15.381
0.108,1.383,0.923,0.793,-20.874,1.892
0.029,1.293,0.936,4.456,-15.991,-9.399
-0.029,1.206,0.929,8.362,-9.949,-20.691
-0.053,1.134,0.916,13.184,-2.075,-32.104
-0.096,1.090,0.894,18.982,1.038,-44.739
-0.164,1.055,0.855,25.574,-3.052,-55.603
-0.201,1.015,0.818,31.982,-6.470,-62.256
-0.188,0.981,0.776,36.255,-10.193,-67.688
-0.257,0.937,0.766,39.368,-20.142,-72.510
-0.252,0.952,0.785,39.673,-35.217,-79.102
-0.310,0.932,0.800,40.588,-48.828,-81.604
-0.318,0.893,0.823,41.382,-52.124,-77.026
-0.275,0.879,0.822,39.429,-49.194,-72.632
-0.222,0.872,0.810,34.851,-44.067,-71.228
-0.210,0.868,0.787,28.564,-39.490,-73.669
-0.219,0.865,0.772,20.813,-35.156,-76.477
-0.213,0.866,0.758,13.123,-29.358,-78.247
-0.197,0.867,0.718,7.385,-26.428,-79.407
-0.207,0.855,0.683,3.296,-25.085,-82.031
-0.162,0.847,0.692,1.526,-25.757,-89.600
-0.192,0.757,0.719,1.831,-33.997,-98.267
-0.268,0.672,0.749,2.014,-44.556,-103.394
-0.263,0.612,0.763,2.136,-50.049,-102.661
-0.223,0.537,0.794,3.113,-52.612,-99.548
-0.257,0.472,0.837,4.517,-62.134,-98.572
-0.312,0.439,0.846,8.423,-72.083,-96.252
-0.288,0.399,0.837,15.320,-72.266,-89.844
-0.250,0.305,0.852,19.165,-67.627,-83.435
-0.217,0.229,0.807,16.785,-61.523,-81.177
-0.148,0.146,0.837,11.719,-53.894,-82.825
-0.154,0.096,0.825,3.601,-58.105,-90.576
-0.218,0.057,0.841,-4.639,-61.890,-99.182
-0.251,0.051,0.859,-10.254,-58.533,-104.065
-0.265,0.048,0.883,-11.475,-49.255,-105.957
-0.263,0.050,0.870,-9.216,-39.368,-107.239
-0.226,-0.001,0.885,-4.944,-31.799,-108.704
-0.192,-0.043,0.918,-1.892,-27.710,-113.525
-0.164,-0.093,0.957,1.099,-25.024,-118.164
-0.187,-0.144,0.998,1.526,-25.940,-121.948
-0.193,-0.203,1.015,-3.357,-28.381,-122.681
-0.209,-0.262,1.017,-14.343,-31.250,-122.192
-0.186,-0.335,1.042,-29.785,-30.212,-123.840
-0.160,-0.420,1.094,-52.185,-28.564,-126.038
-0.170,-0.520,1.166,-83.130,-28.870,-125.610
-0.221,-0.635,1.251,-119.263,-23.315,-119.385
-0.259,-0.737,1.334,-150.024,-9.521,-104.187
-0.269,-0.802,1.417,-165.649,5.615,-81.848
-0.255,-0.808,1.497,-159.790,15.259,-57.007
-0.218,-0.767,1.553,-129.883,14.771,-35.583
-0.199,-0.682,1.550,-81.116,6.165,-18.982
-0.166,-0.549,1.476,-24.109,-2.319,-5.310
-0.126,-0.357,1.363,28.931,-6.897,6.042
-0.082,-0.127,1.241,70.068,-8.850,14.465
-0.073,0.091,1.117,95.947,-8.545,20.142
-0.054,0.286,1.006,103.577,-3.052,24.170
-0.029,0.443,0.920,94.238,6.042,27.405
-0.046,0.559,0.866,73.364,16.479,31.128
-0.058,0.612,0.835,47.791,27.649,37.537
-0.035,0.597,0.823,24.353,37.415,44.983
-0.010,0.516,0.843,7.996,39.429,49.744
0.008,0.402,0.884,0.977,36.072,51.575
0.020,0.269,0.934,2.197,30.518,52.429
0.020,0.146,0.993,7.568,23.315,53.345
0.025,0.037,1.034,14.099,20.752,56.091
0.025,-0.044,1.069,21.606,19.287,60.303
0.013,-0.098,1.099,29.114,21.667,64.392
-0.007,-0.147,1.124,36.682,19.348,69.580
-0.022,-0.195,1.138,44.250,18.494,76.721
-0.029,-0.234,1.137,51.086,18.188,85.266
-0.033,-0.262,1.133,56.274,19.043,93.628
-0.028,-0.286,1.123,59.937,20.264,102.539
-0.020,-0.308,1.107,61.096,24.719,111.328
-0.008,-0.323,1.088,62.012,27.466,118.530
-0.007,-0.330,1.070,61.462,29.480,123.535
-0.030,-0.329,1.051,59.509,32.166,126.343
-0.052,-0.325,1.029,56.702,34.058,127.625
-0.070,-0.312,1.021,53.528,35.950,128.174
-0.104,-0.302,1.008,51.208,38.330,128.845
-0.142,-0.281,1.000,50.842,41.138,129.822
-0.184,-0.240,0.968,52.856,42.175,132.385
-0.205,-0.193,0.932,56.763,43.518,136.353
-0.230,-0.140,0.900,59.998,41.687,140.503
-0.256,-0.084,0.854,61.279,37.842,144.165
-0.240,-0.011,0.820,60.486,35.706,147.278
-0.219,0.054,0.800,57.739,34.119,148.804
-0.209,0.134,0.789,52.795,33.386,146.851
-0.187,0.208,0.771,47.058,33.875,141.113
-0.173,0.267,0.754,40.771,33.203,130.920
-0.161,0.326,0.740,33.936,31.006,114.929
-0.153,0.386,0.724,27.649,25.818,92.957
-0.154,0.448,0.712,21.057,16.602,66.162
-0.198,0.527,0.683,13.123,3.479,37.170
-0.250,0.619,0.670,3.601,-9.705,10.986
-0.316,0.705,0.677,-7.385,-20.935,-7.874
-0.336,0.771,0.711,-20.264,-19.958,-19.043
-0.396,0.770,0.823,-33.630,-7.751,-20.447
-0.434,0.716,1.022,-44.678,11.047,-7.812
-0.557,0.577,1.112,-52.734,26.672,33.875
-0.573,0.451,1.106,-58.899,44.617,91.431
-0.445,0.355,1.094,-55.481,73.181,140.198
-0.331,0.330,1.043,-43.701,87.585,165.100
-0.279,0.397,0.984,-21.240,87.158,161.987
-0.270,0.513,0.922,11.169,80.261,139.709
-0.250,0.639,0.850,44.617,67.871,109.863
-0.129,0.708,0.779,70.129,48.157,81.482
-0.064,0.768,0.730,84.534,26.306,49.500
-0.138,0.833,0.658,85.571,18.555,18.433
-0.228,0.905,0.621,74.524,12.451,-6.897
-0.335,0.976,0.599,55.725,15.747,-22.644
-0.427,1.038,0.620,33.813,21.179,-26.428
-0.693,1.316,0.768,-6.287,6.897,6.226
-0.588,1.334,0.898,-35.889,49.622,69.946
-0.521,1.365,0.896,-72.266,66.162,135.681
-0.282,1.357,0.927,-97.534,81.360,178.345
-0.054,1.316,0.965,-107.849,87.830,194.519
0.093,1.278,0.968,-101.868,81.970,183.777
0.203,1.239,0.969,-79.834,68.115,152.893
0.267,1.205,0.915,-46.448,46.204,112.244
0.276,1.196,0.848,-9.277,23.071,70.007
0.245,1.235,0.796,21.851,5.554,33.569
0.209,1.307,0.792,40.283,-6.958,5.554
0.154,1.323,0.819,45.654,-16.235,-12.573
0.101,1.266,0.873,41.443,-23.010,-22.339
0.072,1.180,0.915,31.372,-24.170,-24.109
0.068,1.086,0.958,19.409,-20.020,-23.132
0.054,1.011,0.983,9.338,-15.137,-25.574
0.013,0.942,1.014,3.845,-11.719,-31.799
-0.041,0.870,1.032,3.357,-10.437,-37.781
-0.103,0.806,1.043,7.446,-10.071,-40.771
-0.137,0.759,1.012,13.977,-9.766,-39.978
-0.141,0.735,0.962,19.897,-7.996,-38.757
-0.143,0.738,0.905,24.170,-7.080,-42.603
-0.141,0.750,0.849,27.039,-10.193,-52.490
-0.150,0.755,0.820,30.518,-18.250,-65.674
-0.178,0.736,0.797,33.203,-29.419,-78.613
-0.206,0.713,0.780,32.959,-38.940,-87.646
-0.227,0.704,0.795,28.442,-45.532,-92.041
-0.249,0.676,0.854,23.193,-50.476,-91.919
-0.264,0.633,0.885,18.433,-51.025,-85.938
-0.237,0.590,0.895,13.123,-44.861,-76.172
-0.180,0.561,0.885,6.165,-33.203,-67.871
-0.107,0.542,0.862,-0.610,-24.414,-66.406
-0.094,0.549,0.841,-5.615,-21.301,-73.853
-0.130,0.581,0.825,-8.911,-22.827,-86.182
-0.151,0.588,0.832,-11.292,-24.902,-96.313
-0.171,0.532,0.850,-13.855,-26.245,-101.135
-0.199,0.445,0.859,-19.714,-26.489,-100.952
-0.223,0.384,0.862,-28.076,-26.611,-98.145
-0.255,0.332,0.896,-32.898,-26.306,-93.079
-0.279,0.295,0.917,-32.043,-24.963,-84.351
-0.257,0.285,0.915,-26.550,-24.048,-71.899
-0.230,0.294,0.891,-18.555,-27.222,-60.730
-0.194,0.324,0.862,-10.742,-33.997,-55.054
-0.109,0.365,0.841,-3.357,-42.542,-55.420
-0.033,0.360,0.856,2.747,-51.086,-62.561
0.020,0.338,0.872,5.371,-62.683,-74.890
0.026,0.300,0.885,4.944,-72.754,-89.417
-0.053,0.300,0.911,2.930,-74.402,-101.379
-0.113,0.313,0.917,1.038,-67.932,-106.873
-0.156,0.278,0.907,-1.343,-56.580,-104.126
-0.169,0.212,0.886,-7.446,-44.800,-95.276
-0.157,0.156,0.870,-18.616,-33.569,-87.097
-0.156,0.149,0.895,-28.809,-27.588,-86.670
-0.203,0.144,0.894,-33.203,-26.978,-88.684
-0.216,0.138,0.875,-33.447,-25.208,-87.524
-0.224,0.112,0.869,-34.851,-24.353,-84.229
-0.200,0.110,0.862,-40.466,-27.344,-81.726
-0.161,0.101,0.848,-47.241,-31.982,-80.261
-0.139,0.085,0.850,-53.162,-37.598,-81.787
-0.122,0.065,0.877,-60.852,-42.664,-86.304
-0.110,0.021,0.919,-70.862,-43.396,-91.003
-0.119,-0.029,0.961,-83.435,-39.978,-94.910
-0.132,-0.079,1.009,-96.313,-31.860,-97.290
-0.161,-0.141,1.080,-108.459,-23.010,-95.276
-0.191,-0.201,1.137,-119.324,-16.357,-88.867
-0.215,-0.281,1.187,-125.977,-12.512,-80.322
-0.215,-0.371,1.261,-128.540,-10.986,-70.251
-0.210,-0.450,1.321,-122.925,-12.634,-56.763
-0.220,-0.500,1.374,-106.873,-14.893,-41.260
-0.215,-0.504,1.402,-81.543,-13.794,-24.658
-0.202,-0.463,1.397,-51.941,-12.207,-9.155
-0.165,-0.378,1.363,-21.606,-10.437,2.808
